Folder: Spectroscopy/XRD/Experimental

File: PowDLL_XY_XRD_Monday, May 22, 2023.csv
PrYVO_05,intensity,PrYVO_05_90,intensity
5.02343,4380,5.02343,4438
5.3123,4111,5.3123,4262
5.60116,4028,5.60116,4130
5.89003,3990,5.89003,4044
6.1789,3865,6.1789,3957
6.46776,3973,6.46776,3921
6.75663,3682,6.75663,3914
7.04549,3636,7.04549,3766
7.33436,3571,7.33436,3692
7.62323,3542,7.62323,3630
7.91209,3578,7.91209,3572
8.20096,3508,8.20096,3441
8.48983,3480,8.48983,3536
8.77869,3456,8.77869,3431
9.06756,3257,9.06756,3430
9.35642,3193,9.35642,3269
9.64529,3125,9.64529,3192
9.93416,3119,9.93416,3217
10.223,3096,10.223,3161
10.5119,2993,10.5119,2985
10.8008,2994,10.8008,3044
11.0896,2803,11.0896,2944
11.3785,2868,11.3785,2883
11.6674,2786,11.6674,2888
11.9562,2724,11.9562,2730
12.2451,2626,12.2451,2696
12.534,2612,12.534,2683
12.8228,2518,12.8228,2663
13.1117,2537,13.1117,2527
13.4006,2504,13.4006,2586
13.6894,2373,13.6894,2405
13.9783,2341,13.9783,2374
14.2672,2294,14.2672,2351
14.556,2178,14.556,2331
14.8449,2237,14.8449,2306
15.1337,2150,15.1337,2192
15.4226,2111,15.4226,2159
15.7115,2103,15.7115,2016
16.0003,1984,16.0003,2076
16.2892,1941,16.2892,1996
16.5781,1885,16.5781,1893
16.8669,1883,16.8669,1925
17.1558,1898,17.1558,1938
17.4447,1810,17.4447,1923
17.7335,1831,17.7335,1958
18.0224,1770,18.0224,1815
18.3113,1719,18.3113,1851
18.6001,1683,18.6001,1795
18.889,1656,18.889,1807
19.1779,1614,19.1779,1650
19.4667,1574,19.4667,1694
19.7556,1499,19.7556,1723
20.0445,1533,20.0445,1804
20.3333,1512,20.3333,1768
20.6222,1439,20.6222,1755
20.9111,1438,20.9111,1700
21.1999,1428,21.1999,1698
21.4888,1462,21.4888,1672
21.7777,1303,21.7777,1717
22.0665,1381,22.0665,1799
22.3554,1310,22.3554,2875
22.6443,1291,22.6443,4555
22.9331,1324,22.9331,2873
23.222,1286,23.222,3295
23.5109,1243,23.5109,3967
23.7997,1142,23.7997,5416
24.0886,1157,24.0886,15723
24.3775,1213,24.3775,83493
24.6663,1161,24.6663,230306
24.9552,1128,24.9552,16345938
25.2441,1121,25.2441,407945
25.5329,1083,25.5329,68098
25.8218,1118,25.8218,21639
26.1107,1074,26.1107,11698
26.3995,1061,26.3995,7230
26.6884,1049,26.6884,4743
26.9773,1057,26.9773,3823
27.2661,1005,27.2661,3183
27.555,994,27.555,2828
27.8439,992,27.8439,2332
28.1327,963,28.1327,2123
28.4216,2355,28.4216,1972
28.7105,947,28.7105,2088
28.9993,949,28.9993,2085
29.2882,986,29.2882,2395
29.5771,957,29.5771,3067
29.8659,867,29.8659,2372
30.1548,932,30.1548,1799
30.4437,915,30.4437,1430
30.7325,911,30.7325,1365
31.0214,856,31.0214,1292
31.3103,834,31.3103,1207
31.5991,873,31.5991,1111
31.888,879,31.888,1153
32.1769,789,32.1769,1169
32.4657,791,32.4657,1101
32.7546,811,32.7546,1079
33.0435,799,33.0435,1049
33.3323,762,33.3323,1037
33.6212,791,33.6212,1019
33.9101,781,33.9101,1020
34.1989,794,34.1989,996
34.4878,772,34.4878,927
34.7767,830,34.7767,1018
35.0655,792,35.0655,911
35.3544,763,35.3544,979
35.6433,708,35.6433,1041
35.9321,704,35.9321,930
36.221,720,36.221,887
36.5099,730,36.5099,902
36.7987,727,36.7987,885
37.0876,723,37.0876,895
37.3765,704,37.3765,933
37.6653,726,37.6653,884
37.9542,699,37.9542,830
38.2431,708,38.2431,890
38.5319,696,38.5319,876
38.8208,690,38.8208,848
39.1097,754,39.1097,842
39.3985,673,39.3985,813
39.6874,657,39.6874,825
39.9762,652,39.9762,817
40.2651,714,40.2651,843
40.554,654,40.554,846
40.8428,661,40.8428,955
41.1317,667,41.1317,911
41.4206,702,41.4206,849
41.7094,659,41.7094,822
41.9983,696,41.9983,822
42.2872,632,42.2872,821
42.576,648,42.576,857
42.8649,660,42.8649,805
43.1538,636,43.1538,820
43.4426,642,43.4426,866
43.7315,625,43.7315,787
44.0204,671,44.0204,777
44.3092,628,44.3092,798
44.5981,605,44.5981,821
44.887,674,44.887,755
45.1758,620,45.1758,852
45.4647,640,45.4647,817
45.7536,595,45.7536,1072
46.0424,602,46.0424,11273
46.3313,636,46.3313,1034
46.6202,623,46.6202,957
46.909,608,46.909,1038
47.1979,617,47.1979,1024
47.4868,592,47.4868,1002
47.7756,606,47.7756,1010
48.0645,587,48.0645,1095
48.3534,566,48.3534,1061
48.6422,590,48.6422,1283
48.9311,590,48.9311,2010
49.22,610,49.22,1993
49.5088,576,49.5088,7546
49.7977,589,49.7977,11317
50.0866,572,50.0866,17980
50.3754,580,50.3754,27527
50.6643,591,50.6643,45245
50.9532,642,50.9532,169025
51.242,581,51.242,9460636
51.5309,621,51.5309,471562
51.8198,626,51.8198,51835
52.1086,676,52.1086,22787
52.3975,786,52.3975,11552
52.6864,795,52.6864,6462
52.9752,611,52.9752,4156
53.2641,591,53.2641,2951
53.553,641,53.553,2479
53.8418,587,53.8418,2024
54.1307,597,54.1307,1718
54.4196,643,54.4196,1575
54.7084,644,54.7084,1279
54.9973,647,54.9973,1238
55.2862,644,55.2862,1186
55.575,720,55.575,1134
55.8639,762,55.8639,1062
56.1528,838,56.1528,958
56.4416,1462,56.4416,997
56.7305,2666,56.7305,964
57.0194,3544,57.0194,946
57.3082,5064,57.3082,910
57.5971,6932,57.5971,954
57.886,10196,57.886,888
58.1748,19045,58.1748,870
58.4637,100445,58.4637,859
58.7526,512969,58.7526,896
59.0414,43465,59.0414,855
59.3303,11719,59.3303,842
59.6192,6032,59.6192,875
59.908,3637,59.908,879
60.1969,2439,60.1969,881
60.4858,1670,60.4858,882
60.7746,1364,60.7746,836
61.0635,1119,61.0635,839
61.3524,1087,61.3524,829
61.6412,957,61.6412,906
61.9301,908,61.9301,824
62.219,900,62.219,853
62.5078,821,62.5078,846
62.7967,793,62.7967,904
63.0856,770,63.0856,890
63.3744,781,63.3744,774
63.6633,727,63.6633,860
63.9521,730,63.9521,839
64.241,785,64.241,798
64.5299,755,64.5299,799
64.8187,686,64.8187,863
65.1076,694,65.1076,842
65.3965,645,65.3965,819
65.6853,717,65.6853,813
65.9742,675,65.9742,803
66.2631,656,66.2631,818
66.5519,694,66.5519,799
66.8408,729,66.8408,769
67.1297,714,67.1297,812
67.4185,705,67.4185,762
67.7074,683,67.7074,816
67.9963,735,67.9963,775
68.2851,640,68.2851,884
68.574,700,,
68.8629,716,,
69.1517,724,,
69.4406,726,,
69.7295,692,,
70.0183,732,,
70.3072,701,,
70.5961,696,,
70.8849,658,,
71.1738,707,,
71.4627,696,,
71.7515,694,,
72.0404,681,,
72.3293,664,,
72.6181,736,,
72.907,703,,
73.19587,702,,
73.4847,717,,
73.7736,635,,
74.0625,711,,
74.3513,727,,
74.6402,717,,
74.9291,666,,
75.2179,665,,
75.5068,664,,
75.7957,681,,
76.0845,652,,
76.3734,692,,
76.6623,675,,
76.9511,696,,
77.24,687,,
77.5289,689,,
77.8177,710,,
78.1066,733,,
78.3955,696,,
78.6843,728,,
78.9732,696,,
79.2621,699,,
79.5509,708,,
79.8398,686,,
80.1287,725,,
80.4175,690,,
80.7064,723,,
80.9953,729,,
81.2841,720,,
81.573,726,,
81.8619,688,,
82.1507,687,,
82.4396,721,,
82.7285,734,,
83.0173,706,,
83.3062,662,,
83.5951,729,,
83.8839,713,,
84.1728,628,,
84.4617,712,,
84.7505,696,,
84.9869,680,,

File: PrO_Stick.csv
x	 y
28.2571	100
32.8322	35.0598
46.9935	49.4024
55.9259	39.8406
58.5403	9.56175
68.5621	7.96813
75.7516	13.9442
78.1481	9.56175
87.2985	9.96016
94.2702	9.96016
105.817	5.57769
113.007	9.96016
115.621	7.96813
126.078	3.98406
135.011	5.57769
138.279	5.9761

File: YVO_stick.csv
x	 y
25	 99.1379
34	 69.8276
31.5556	 0.862069
19	 5.17241
35.6667	 13.7931
38.5556	 8.62069
40.6667	 8.62069
45.7778	 4.31034
48.3333	 7.75862
50	 50
51.2222	 16.3793
52.8889	 1.72414
55.1111	 0.862069
57.7778	 11.2069
59.7778	 1.72414
62.8889	 12.931
65.8889	 8.62069
67.4444	 2.58621
71.6667	 11.2069
74.4444	 10.3448
81	 4.31034
83.8889	 0.862069
85.3333	 8.62069
86.2222	 4.31034
87.5556	 0.862069
88	9.48276
75.3333	 3.44828
71.1111	 2.58621
82.5556	 2.58621